date	time	group	subject	build	blocknum	trialnum	blockcode	trialcode	pretrialpause	posttrialpause	windowcenter	trialduration	trialtimeout	blocktimeout	response	correct	latency	inwindow	stimulusnumber1	stimulusitem1	stimulusvpos1	stimulushpos1	stimulusonset1	stimulusnumber2	stimulusitem2	stimulusvpos2	stimulushpos2	stimulusonset2	stimulusnumber3	stimulusitem3	stimulusvpos3	stimulushpos3	stimulusonset3	stimulusnumber4	stimulusitem4	stimulusvpos4	stimulushpos4	stimulusonset4	stimulusnumber5	stimulusitem5	stimulusvpos5	stimulushpos5	stimulusonset5
120216	15:45:18	1	1	4.0.9.0	1	1	exp	pic15	500	0	0	0	0	0	Ctrl+'Q'	1	12204	0	1	+	50pct	50pct	0	1	pic0.jpg	50pct	12pct	1649	1	pic15.jpg	50pct	38pct	1649	1	pic0.jpg	50pct	62pct	1649	1	pic0.jpg	50pct	88pct	1649
120216	15:50:13	1	1	4.0.9.0	1	1	exp	pic2	500	0	0	0	0	0	pic2	1	1829	0	1	+	50pct	50pct	0	1	pic0.jpg	50pct	12pct	1649	1	pic2.jpg	50pct	38pct	1649	1	pic0.jpg	50pct	62pct	1649	1	pic0.jpg	50pct	88pct	1649
120216	15:50:13	1	1	4.0.9.0	1	2	exp	pic4	500	0	0	0	0	0	pic03	0	1987	0	1	+	50pct	50pct	0	1	pic0.jpg	50pct	12pct	1649	1	pic4.jpg	50pct	38pct	1649	1	pic0.jpg	50pct	62pct	1649	1	pic0.jpg	50pct	88pct	1649
120216	15:50:13	1	1	4.0.9.0	1	3	exp	pic11	500	0	0	0	0	0	pic04	0	13856	0	1	+	50pct	50pct	0	1	pic0.jpg	50pct	12pct	1649	1	pic11.jpg	50pct	38pct	1649	1	pic0.jpg	50pct	62pct	1649	1	pic0.jpg	50pct	88pct	1649
120216	15:50:13	1	1	4.0.9.0	1	4	exp	pic13	500	0	0	0	0	0	Ctrl+'Q'	1	7422	0	1	+	50pct	50pct	0	1	pic0.jpg	50pct	12pct	1649	1	pic13.jpg	50pct	38pct	1649	1	pic0.jpg	50pct	62pct	1649	1	pic0.jpg	50pct	88pct	1649
120216	15:51:33	1	1	4.0.9.0	1	1	exp	pic10	500	0	0	0	0	0	Ctrl+'Q'	1	58	0	1	+	50pct	50pct	0	1	pic0.jpg	50pct	12pct	1649	1	pic10.jpg	50pct	38pct	1649	1	pic0.jpg	50pct	62pct	1649	1	pic0.jpg	50pct	88pct	1649
120216	15:52:03	1	1	4.0.9.0	1	1	exp	pic6	500	0	0	0	0	0	Ctrl+'Q'	1	426	0	1	+	50pct	50pct	0	1	pic0.jpg	50pct	12pct	1649	1	pic6.jpg	50pct	38pct	1649	1	pic0.jpg	50pct	62pct	1649	1	pic0.jpg	50pct	88pct	1649
120216	15:52:32	1	1	4.0.9.0	1	1	exp	pic7	500	0	0	0	0	0	pic7	1	1850	0	1	+	50pct	50pct	0	1	pic0.jpg	50pct	12pct	1649	1	pic7.jpg	50pct	38pct	1649	1	pic0.jpg	50pct	62pct	1649	1	pic0.jpg	50pct	88pct	1649	1	√	50pct	50pct	3546	0	0	0	0	0	0	0	0	0	0	0	0	0	0	0	0	0	0	0	0	0	0	0	0	0	0	0	0	0	0	0	0	0	0	0	0	0	0	0	0	0	0	0	0	0	0	0	0	0	0	0	0	0	0	0	0	0	0	0	0	0	0	0	0	0	0	0	0	0	0	0	0	0	0	0	0	0	0	0	0	0	0	0	0	0	0	0	0	0	0	0	0	0	0	0	0	0	0	0	0	0	0	0	0	0	0	0	0	0	0	0	0	0	0	0	0	0	0	0	0	0	0	0	0	0	0	0	0	0	0	0	0	0	0	0	0	0	0	0	0	0	0	0	0	0	0	0	0	0	0	0	0	0	0	0	0	0	0	0	0	0	0	0	0	0	0	0	0	0	0	0	0	0	0	0	0	0	0	0	0	0	0	0	0	0	0	0	0	0	0	0	0	0	0	0	0	0	0	0	0	0	0	0	0	0	0	0	0	0	0	0	0	0	0	0	0	0	0	0	0	0	0	0	0	0	0	0	0	0	0	0	0	0	0	0	0	0	0	0	0	0	0	0	0	0	0	0	0	0	0	0	0	0	0	0	0	0	0	0	0	0	0	0	0	0	0	0	0	0	0	0	0	0	0	0	0	0	0	0	0	0	0	0	0	0	0	0	0	0	0	0	0	0	0	0	0	0	0	0	0	0	0	0	0	0	0	0	0	0	0	0	0	0	0	0	0	0	0	0	0	0	0	0	0	0	0	0	0	0	0	0	0	0	0	0	0	0	0	0	0	0	0	0	0	0	0	0	0	0	0	0	0	0	0	0	0	0	0	0	0	0	0	0	0	0	0	0	0	0	0	0	0	0	0	0	0	0	0	0	0	0	0	0	0	0	0	0	0	0	0	0	0	0	0	0	0	0	0	0	0	0	0	0	0	0	0	0	0	0	0	0	0	0	0	0	0	0	0	0	0	0	0	0	0	0	0	0	0	0	0	0	0	0	0	0	0	0	0	0	0	0	0	0	0	0	0	0	0	0	0	0	0	0	0	0	0	0	0	0	0	0	0	0	0	0	0	0	0	0	0	0	0	0	0	0	0	0	0	0	0	0	0	0	0	0
120216	15:52:32	1	1	4.0.9.0	1	2	exp	pic9	500	0	0	0	0	0	Ctrl+'Q'	1	1052	0	1	+	50pct	50pct	0	1	pic0.jpg	50pct	12pct	1649	1	pic9.jpg	50pct	38pct	1649	1	pic0.jpg	50pct	62pct	1649	1	pic0.jpg	50pct	88pct	1649	1	√	50pct	50pct	-1	0	0	0	0	0	0	0	0	0	0	0	0	0	0	0	0	0	0	0	0	0	0	0	0	0	0	0	0	0	0	0	0	0	0	0	0	0	0	0	0	0	0	0	0	0	0	0	0	0	0	0	0	0	0	0	0	0	0	0	0	0	0	0	0	0	0	0	0	0	0	0	0	0	0	0	0	0	0	0	0	0	0	0	0	0	0	0	0	0	0	0	0	0	0	0	0	0	0	0	0	0	0	0	0	0	0	0	0	0	0	0	0	0	0	0	0	0	0	0	0	0	0	0	0	0	0	0	0	0	0	0	0	0	0	0	0	0	0	0	0	0	0	0	0	0	0	0	0	0	0	0	0	0	0	0	0	0	0	0	0	0	0	0	0	0	0	0	0	0	0	0	0	0	0	0	0	0	0	0	0	0	0	0	0	0	0	0	0	0	0	0	0	0	0	0	0	0	0	0	0	0	0	0	0	0	0	0	0	0	0	0	0	0	0	0	0	0	0	0	0	0	0	0	0	0	0	0	0	0	0	0	0	0	0	0	0	0	0	0	0	0	0	0	0	0	0	0	0	0	0	0	0	0	0	0	0	0	0	0	0	0	0	0	0	0	0	0	0	0	0	0	0	0	0	0	0	0	0	0	0	0	0	0	0	0	0	0	0	0	0	0	0	0	0	0	0	0	0	0	0	0	0	0	0	0	0	0	0	0	0	0	0	0	0	0	0	0	0	0	0	0	0	0	0	0	0	0	0	0	0	0	0	0	0	0	0	0	0	0	0	0	0	0	0	0	0	0	0	0	0	0	0	0	0	0	0	0	0	0	0	0	0	0	0	0	0	0	0	0	0	0	0	0	0	0	0	0	0	0	0	0	0	0	0	0	0	0	0	0	0	0	0	0	0	0	0	0	0	0	0	0	0	0	0	0	0	0	0	0	0	0	0	0	0	0	0	0	0	0	0	0	0	0	0	0	0	0	0	0	0	0	0	0	0	0	0	0	0	0	0	0	0	0	0	0	0	0	0	0	0	0	0	0	0	0	0	0	0	0	0	0	0	0	0	0	0	0	0	0	0	0	0	0	0	0	0	0	0	0	0	0	0	0	0	0
120216	15:53:35	1	1	4.0.9.0	1	1	exp	pic11	500	0	0	0	0	0	pic03	0	8380	0	1	+	50pct	50pct	0	1	+	50pct	50pct	0	1	+	50pct	50pct	0	1	+	50pct	50pct	0	1	+	50pct	50pct	0	1	+	50pct	50pct	0	1	+	50pct	50pct	0	1	+	50pct	50pct	0	1	+	50pct	50pct	0	1	+	50pct	50pct	0	1	+	50pct	50pct	0	1	+	50pct	50pct	0	1	+	50pct	50pct	0	1	+	50pct	50pct	0	1	+	50pct	50pct	0	1	+	50pct	50pct	0	1	+	50pct	50pct	0	1	+	50pct	50pct	0	1	+	50pct	50pct	0	1	+	50pct	50pct	0	1	+	50pct	50pct	0	1	+	50pct	50pct	0	1	+	50pct	50pct	0	1	+	50pct	50pct	0	1	+	50pct	50pct	0	1	+	50pct	50pct	0	1	+	50pct	50pct	0	1	+	50pct	50pct	0	1	+	50pct	50pct	0	1	+	50pct	50pct	0	1	+	50pct	50pct	0	1	+	50pct	50pct	0	1	+	50pct	50pct	0	1	+	50pct	50pct	0	1	+	50pct	50pct	0	1	+	50pct	50pct	0	1	+	50pct	50pct	0	1	+	50pct	50pct	0	1	+	50pct	50pct	0	1	+	50pct	50pct	0	1	+	50pct	50pct	0	1	+	50pct	50pct	0	1	+	50pct	50pct	0	1	+	50pct	50pct	0	1	+	50pct	50pct	0	1	+	50pct	50pct	0	1	+	50pct	50pct	0	1	+	50pct	50pct	0	1	+	50pct	50pct	0	1	+	50pct	50pct	0	1	+	50pct	50pct	0	1	+	50pct	50pct	0	1	+	50pct	50pct	0	1	+	50pct	50pct	0	1	+	50pct	50pct	0	1	+	50pct	50pct	0	1	+	50pct	50pct	0	1	+	50pct	50pct	0	1	+	50pct	50pct	0	1	+	50pct	50pct	0	1	+	50pct	50pct	0	1	+	50pct	50pct	0	1	+	50pct	50pct	0	1	+	50pct	50pct	0	1	+	50pct	50pct	0	1	+	50pct	50pct	0	1	+	50pct	50pct	0	1	+	50pct	50pct	0	1	+	50pct	50pct	0	1	+	50pct	50pct	0	1	+	50pct	50pct	0	1	+	50pct	50pct	0	1	+	50pct	50pct	0	1	+	50pct	50pct	0	1	+	50pct	50pct	0	1	+	50pct	50pct	0	1	+	50pct	50pct	0	1	+	50pct	50pct	0	1	+	50pct	50pct	0	1	+	50pct	50pct	0	1	+	50pct	50pct	0	1	+	50pct	50pct	0	1	+	50pct	50pct	0	1	+	50pct	50pct	0	1	+	50pct	50pct	0	1	+	50pct	50pct	0	1	+	50pct	50pct	0	1	+	50pct	50pct	0	1	+	50pct	50pct	0	1	+	50pct	50pct	0	1	+	50pct	50pct	0	1	+	50pct	50pct	0	1	+	50pct	50pct	0	1	+	50pct	50pct	0	1	+	50pct	50pct	0	1	+	50pct	50pct	0	1	+	50pct	50pct	0	1	+	50pct	50pct	0	1	+	50pct	50pct	0	1	pic0.jpg	50pct	12pct	1649	1	pic11.jpg	50pct	38pct	1649	1	pic0.jpg	50pct	62pct	1649	1	pic0.jpg	50pct	88pct	1649
120216	15:53:35	1	1	4.0.9.0	1	2	exp	pic4	500	0	0	0	0	0	pic4	1	454	0	1	+	50pct	50pct	0	1	+	50pct	50pct	0	1	+	50pct	50pct	0	1	+	50pct	50pct	0	1	+	50pct	50pct	0	1	+	50pct	50pct	0	1	+	50pct	50pct	0	1	+	50pct	50pct	0	1	+	50pct	50pct	0	1	+	50pct	50pct	0	1	+	50pct	50pct	0	1	+	50pct	50pct	0	1	+	50pct	50pct	0	1	+	50pct	50pct	0	1	+	50pct	50pct	0	1	+	50pct	50pct	0	1	+	50pct	50pct	0	1	+	50pct	50pct	0	1	+	50pct	50pct	0	1	+	50pct	50pct	0	1	+	50pct	50pct	0	1	+	50pct	50pct	0	1	+	50pct	50pct	0	1	+	50pct	50pct	0	1	+	50pct	50pct	0	1	+	50pct	50pct	0	1	+	50pct	50pct	0	1	+	50pct	50pct	0	1	+	50pct	50pct	0	1	+	50pct	50pct	0	1	+	50pct	50pct	0	1	+	50pct	50pct	0	1	+	50pct	50pct	0	1	+	50pct	50pct	0	1	+	50pct	50pct	0	1	+	50pct	50pct	0	1	+	50pct	50pct	0	1	+	50pct	50pct	0	1	+	50pct	50pct	0	1	+	50pct	50pct	0	1	+	50pct	50pct	0	1	+	50pct	50pct	0	1	+	50pct	50pct	0	1	+	50pct	50pct	0	1	+	50pct	50pct	0	1	+	50pct	50pct	0	1	+	50pct	50pct	0	1	+	50pct	50pct	0	1	+	50pct	50pct	0	1	+	50pct	50pct	0	1	+	50pct	50pct	0	1	+	50pct	50pct	0	1	+	50pct	50pct	0	1	+	50pct	50pct	0	1	+	50pct	50pct	0	1	+	50pct	50pct	0	1	+	50pct	50pct	0	1	+	50pct	50pct	0	1	+	50pct	50pct	0	1	+	50pct	50pct	0	1	+	50pct	50pct	0	1	+	50pct	50pct	0	1	+	50pct	50pct	0	1	+	50pct	50pct	0	1	+	50pct	50pct	0	1	+	50pct	50pct	0	1	+	50pct	50pct	0	1	+	50pct	50pct	0	1	+	50pct	50pct	0	1	+	50pct	50pct	0	1	+	50pct	50pct	0	1	+	50pct	50pct	0	1	+	50pct	50pct	0	1	+	50pct	50pct	0	1	+	50pct	50pct	0	1	+	50pct	50pct	0	1	+	50pct	50pct	0	1	+	50pct	50pct	0	1	+	50pct	50pct	0	1	+	50pct	50pct	0	1	+	50pct	50pct	0	1	+	50pct	50pct	0	1	+	50pct	50pct	0	1	+	50pct	50pct	0	1	+	50pct	50pct	0	1	+	50pct	50pct	0	1	+	50pct	50pct	0	1	+	50pct	50pct	0	1	+	50pct	50pct	0	1	+	50pct	50pct	0	1	+	50pct	50pct	0	1	+	50pct	50pct	0	1	+	50pct	50pct	0	1	+	50pct	50pct	0	1	+	50pct	50pct	0	1	+	50pct	50pct	0	1	+	50pct	50pct	0	1	+	50pct	50pct	0	1	+	50pct	50pct	0	1	pic0.jpg	50pct	12pct	1649	1	pic4.jpg	50pct	38pct	1649	1	pic0.jpg	50pct	62pct	1649	1	pic0.jpg	50pct	88pct	1649
120216	15:53:35	1	1	4.0.9.0	1	3	exp	pic2	500	0	0	0	0	0	Ctrl+'Q'	1	96	0	1	+	50pct	50pct	0	1	+	50pct	50pct	0	1	+	50pct	50pct	0	1	+	50pct	50pct	0	1	+	50pct	50pct	0	1	+	50pct	50pct	0	1	+	50pct	50pct	0	1	+	50pct	50pct	0	1	+	50pct	50pct	0	1	+	50pct	50pct	0	1	+	50pct	50pct	0	1	+	50pct	50pct	0	1	+	50pct	50pct	0	1	+	50pct	50pct	0	1	+	50pct	50pct	0	1	+	50pct	50pct	0	1	+	50pct	50pct	0	1	+	50pct	50pct	0	1	+	50pct	50pct	0	1	+	50pct	50pct	0	1	+	50pct	50pct	0	1	+	50pct	50pct	0	1	+	50pct	50pct	0	1	+	50pct	50pct	0	1	+	50pct	50pct	0	1	+	50pct	50pct	0	1	+	50pct	50pct	0	1	+	50pct	50pct	0	1	+	50pct	50pct	0	1	+	50pct	50pct	0	1	+	50pct	50pct	0	1	+	50pct	50pct	0	1	+	50pct	50pct	0	1	+	50pct	50pct	0	1	+	50pct	50pct	0	1	+	50pct	50pct	0	1	+	50pct	50pct	0	1	+	50pct	50pct	0	1	+	50pct	50pct	0	1	+	50pct	50pct	0	1	+	50pct	50pct	0	1	+	50pct	50pct	0	1	+	50pct	50pct	0	1	+	50pct	50pct	0	1	+	50pct	50pct	0	1	+	50pct	50pct	0	1	+	50pct	50pct	0	1	+	50pct	50pct	0	1	+	50pct	50pct	0	1	+	50pct	50pct	0	1	+	50pct	50pct	0	1	+	50pct	50pct	0	1	+	50pct	50pct	0	1	+	50pct	50pct	0	1	+	50pct	50pct	0	1	+	50pct	50pct	0	1	+	50pct	50pct	0	1	+	50pct	50pct	0	1	+	50pct	50pct	0	1	+	50pct	50pct	0	1	+	50pct	50pct	0	1	+	50pct	50pct	0	1	+	50pct	50pct	0	1	+	50pct	50pct	0	1	+	50pct	50pct	0	1	+	50pct	50pct	0	1	+	50pct	50pct	0	1	+	50pct	50pct	0	1	+	50pct	50pct	0	1	+	50pct	50pct	0	1	+	50pct	50pct	0	1	+	50pct	50pct	0	1	+	50pct	50pct	0	1	+	50pct	50pct	0	1	+	50pct	50pct	0	1	+	50pct	50pct	0	1	+	50pct	50pct	0	1	+	50pct	50pct	0	1	+	50pct	50pct	0	1	+	50pct	50pct	0	1	+	50pct	50pct	0	1	+	50pct	50pct	0	1	+	50pct	50pct	0	1	+	50pct	50pct	0	1	+	50pct	50pct	0	1	+	50pct	50pct	0	1	+	50pct	50pct	0	1	+	50pct	50pct	0	1	+	50pct	50pct	0	1	+	50pct	50pct	0	1	+	50pct	50pct	0	1	+	50pct	50pct	0	1	+	50pct	50pct	0	1	+	50pct	50pct	0	1	+	50pct	50pct	0	1	+	50pct	50pct	0	1	+	50pct	50pct	0	1	+	50pct	50pct	0	1	+	50pct	50pct	0	1	pic0.jpg	50pct	12pct	1649	1	pic2.jpg	50pct	38pct	1649	1	pic0.jpg	50pct	62pct	1649	1	pic0.jpg	50pct	88pct	1649
120216	15:54:54	1	1	4.0.9.0	1	1	exp	pic4	500	0	0	0	0	0	Ctrl+'Q'	1	6084	0	1	+	50pct	50pct	0	1	pic0.jpg	50pct	12pct	1649	1	pic4.jpg	50pct	38pct	1649	1	pic0.jpg	50pct	62pct	1649	1	pic0.jpg	50pct	88pct	1649
120216	16:00:32	1	1	4.0.9.0	1	1	exp	pic15	500	0	0	0	0	0	pic15	1	6756	0	1	+	50pct	50pct	0	1	+	50pct	50pct	1483	1	pic0.jpg	50pct	12pct	1649	1	pic15.jpg	50pct	38pct	1649	1	pic0.jpg	50pct	62pct	1649	1	pic0.jpg	50pct	88pct	1649
120216	16:00:32	1	1	4.0.9.0	1	2	exp	pic3	500	0	0	0	0	0	Ctrl+'Q'	1	1652	0	1	+	50pct	50pct	0	1	+	50pct	50pct	1399	1	pic0.jpg	50pct	12pct	1649	1	pic3.jpg	50pct	38pct	1649	1	pic0.jpg	50pct	62pct	1649	1	pic0.jpg	50pct	88pct	1649
120216	16:01:00	1	1	4.0.9.0	1	1	exp	pic1	500	0	0	0	0	0	Ctrl+'Q'	1	1939	0	1	+	50pct	50pct	0	1	+	50pct	50pct	1633	1	pic0.jpg	50pct	12pct	1649	1	pic1.jpg	50pct	38pct	1649	1	pic0.jpg	50pct	62pct	1649	1	pic0.jpg	50pct	88pct	1649
120216	16:01:15	1	1	4.0.9.0	1	1	exp	pic14	500	0	0	0	0	0	pic14	1	2874	0	1	+	50pct	50pct	0	1	+	50pct	50pct	1483	1	pic0.jpg	50pct	12pct	1649	1	pic14.jpg	50pct	38pct	1649	1	pic0.jpg	50pct	62pct	1649	1	pic0.jpg	50pct	88pct	1649
120216	16:01:15	1	1	4.0.9.0	1	2	exp	pic8	500	0	0	0	0	0	pic8	1	1014	0	1	+	50pct	50pct	0	1	+	50pct	50pct	1399	1	pic0.jpg	50pct	12pct	1649	1	pic8.jpg	50pct	38pct	1649	1	pic0.jpg	50pct	62pct	1649	1	pic0.jpg	50pct	88pct	1649
120216	16:01:15	1	1	4.0.9.0	1	3	exp	pic12	500	0	0	0	0	0	pic03	0	642	0	1	+	50pct	50pct	0	1	+	50pct	50pct	1483	1	pic0.jpg	50pct	12pct	1649	1	pic12.jpg	50pct	38pct	1649	1	pic0.jpg	50pct	62pct	1649	1	pic0.jpg	50pct	88pct	1649
120216	16:01:15	1	1	4.0.9.0	1	4	exp	pic3	500	0	0	0	0	0	Ctrl+'Q'	1	1144	0	1	+	50pct	50pct	0	1	+	50pct	50pct	1399	1	pic0.jpg	50pct	12pct	1649	1	pic3.jpg	50pct	38pct	1649	1	pic0.jpg	50pct	62pct	1649	1	pic0.jpg	50pct	88pct	1649
120216	16:26:39	1	1	4.0.9.0	1	1	exp	pic12	500	0	0	0	0	0	pic12	1	4875	0	1	+	50pct	50pct	0	1	+	50pct	50pct	1483	1	pic0.jpg	50pct	12pct	1649	1	pic12.jpg	50pct	38pct	1649	1	pic0.jpg	50pct	62pct	1649	1	pic0.jpg	50pct	88pct	1649
120216	16:26:39	1	1	4.0.9.0	1	2	exp	pic14	500	0	0	0	0	0	pic03	0	634	0	1	+	50pct	50pct	0	1	+	50pct	50pct	1483	1	pic0.jpg	50pct	12pct	1649	1	pic14.jpg	50pct	38pct	1649	1	pic0.jpg	50pct	62pct	1649	1	pic0.jpg	50pct	88pct	1649
120216	16:26:39	1	1	4.0.9.0	1	3	exp	pic1	500	0	0	0	0	0	pic1	1	217	0	1	+	50pct	50pct	0	1	+	50pct	50pct	1633	1	pic0.jpg	50pct	12pct	1649	1	pic1.jpg	50pct	38pct	1649	1	pic0.jpg	50pct	62pct	1649	1	pic0.jpg	50pct	88pct	1649
120216	16:26:39	1	1	4.0.9.0	1	4	exp	pic11	500	0	0	0	0	0	pic04	0	191	0	1	+	50pct	50pct	0	1	+	50pct	50pct	1483	1	pic0.jpg	50pct	12pct	1649	1	pic11.jpg	50pct	38pct	1649	1	pic0.jpg	50pct	62pct	1649	1	pic0.jpg	50pct	88pct	1649
120216	16:26:39	1	1	4.0.9.0	1	5	exp	pic7	500	0	0	0	0	0	pic7	1	826	0	1	+	50pct	50pct	0	1	+	50pct	50pct	1399	1	pic0.jpg	50pct	12pct	1649	1	pic7.jpg	50pct	38pct	1649	1	pic0.jpg	50pct	62pct	1649	1	pic0.jpg	50pct	88pct	1649
120216	16:26:39	1	1	4.0.9.0	1	6	exp	pic3	500	0	0	0	0	0	pic3	1	287	0	1	+	50pct	50pct	0	1	+	50pct	50pct	1399	1	pic0.jpg	50pct	12pct	1649	1	pic3.jpg	50pct	38pct	1649	1	pic0.jpg	50pct	62pct	1649	1	pic0.jpg	50pct	88pct	1649
120216	16:26:39	1	1	4.0.9.0	1	7	exp	pic13	500	0	0	0	0	0	pic01	0	298	0	1	+	50pct	50pct	0	1	+	50pct	50pct	1483	1	pic0.jpg	50pct	12pct	1649	1	pic13.jpg	50pct	38pct	1649	1	pic0.jpg	50pct	62pct	1649	1	pic0.jpg	50pct	88pct	1649
120216	16:26:39	1	1	4.0.9.0	1	8	exp	pic5	500	0	0	0	0	0	pic5	1	362	0	1	+	50pct	50pct	0	1	+	50pct	50pct	1566	1	pic0.jpg	50pct	12pct	1649	1	pic5.jpg	50pct	38pct	1649	1	pic0.jpg	50pct	62pct	1649	1	pic0.jpg	50pct	88pct	1649
120216	16:26:39	1	1	4.0.9.0	1	9	exp	pic2	500	0	0	0	0	0	pic2	1	3021	0	1	+	50pct	50pct	0	1	+	50pct	50pct	1316	1	pic0.jpg	50pct	12pct	1649	1	pic2.jpg	50pct	38pct	1649	1	pic0.jpg	50pct	62pct	1649	1	pic0.jpg	50pct	88pct	1649
120216	16:26:39	1	1	4.0.9.0	1	10	exp	pic4	500	0	0	0	0	0	pic4	1	349	0	1	+	50pct	50pct	0	1	+	50pct	50pct	1483	1	pic0.jpg	50pct	12pct	1649	1	pic4.jpg	50pct	38pct	1649	1	pic0.jpg	50pct	62pct	1649	1	pic0.jpg	50pct	88pct	1649
120216	16:26:39	1	1	4.0.9.0	1	11	exp	pic15	500	0	0	0	0	0	pic15	1	4753	0	1	+	50pct	50pct	0	1	+	50pct	50pct	1483	1	pic0.jpg	50pct	12pct	1649	1	pic15.jpg	50pct	38pct	1649	1	pic0.jpg	50pct	62pct	1649	1	pic0.jpg	50pct	88pct	1649
120216	16:26:39	1	1	4.0.9.0	1	12	exp	pic6	500	0	0	0	0	0	pic03	0	4681	0	1	+	50pct	50pct	0	1	+	50pct	50pct	1399	1	pic0.jpg	50pct	12pct	1649	1	pic6.jpg	50pct	38pct	1649	1	pic0.jpg	50pct	62pct	1649	1	pic0.jpg	50pct	88pct	1649
120216	16:26:39	1	1	4.0.9.0	1	13	exp	pic8	500	0	0	0	0	0	pic03	0	272	0	1	+	50pct	50pct	0	1	+	50pct	50pct	1399	1	pic0.jpg	50pct	12pct	1649	1	pic8.jpg	50pct	38pct	1649	1	pic0.jpg	50pct	62pct	1649	1	pic0.jpg	50pct	88pct	1649
120216	16:26:39	1	1	4.0.9.0	1	14	exp	pic10	500	0	0	0	0	0	pic03	0	323	0	1	+	50pct	50pct	0	1	+	50pct	50pct	1399	1	pic0.jpg	50pct	12pct	1649	1	pic10.jpg	50pct	38pct	1649	1	pic0.jpg	50pct	62pct	1649	1	pic0.jpg	50pct	88pct	1649
120216	16:26:39	1	1	4.0.9.0	1	15	exp	pic9	500	0	0	0	0	0	pic03	0	300	0	1	+	50pct	50pct	0	1	+	50pct	50pct	1399	1	pic0.jpg	50pct	12pct	1649	1	pic9.jpg	50pct	38pct	1649	1	pic0.jpg	50pct	62pct	1649	1	pic0.jpg	50pct	88pct	1649
